ENLIGHTEN Version,1.7.2
Measurement ID,20190716-220650-336364-WP-00438
Serial Number,WP-00438
Label,cyclohexane
Integration Time,500
Timestamp,2019-07-16 22:06:50.336364
Note,
Temperature,-99
CCD C0,807.1400146484375
CCD C1,0.11761099845170975
CCD C2,-1.6414700439781882e-05
CCD C3,2.3293600381890656e-09
CCD Offset,0
CCD Gain,8.0
Laser Wavelength,785.0
Laser Enable,True
Laser Power,100.0
Laser Temperature,-99
Pixel Count,1952

Wavenumber,Processed
349.43,0.00
351.23,0.00
353.04,0.00
354.84,41.00
356.64,51.00
358.44,83.00
360.24,134.00
362.04,158.00
363.84,90.00
365.64,324.00
367.43,241.00
369.23,287.00
371.02,326.00
372.81,451.00
374.60,403.00
376.39,496.00
378.18,624.00
379.97,671.00
381.76,769.00
383.55,885.00
385.33,728.00
387.11,1091.00
388.90,869.00
390.68,965.00
392.46,711.00
394.24,877.00
396.02,832.00
397.80,725.00
399.58,658.00
401.35,603.00
403.13,463.00
404.90,549.00
406.68,387.00
408.45,422.00
410.22,477.00
411.99,425.00
413.76,579.00
415.53,597.00
417.30,612.00
419.06,737.00
420.83,794.00
422.59,910.00
424.35,946.00
426.12,1019.00
427.88,1092.00
429.64,1133.00
431.40,1054.00
433.16,1149.00
434.91,1011.00
436.67,974.00
438.43,791.00
440.18,640.00
441.93,747.00
443.69,602.00
445.44,446.00
447.19,420.00
448.94,374.00
450.69,330.00
452.43,259.00
454.18,386.00
455.92,276.00
457.67,201.00
459.41,175.00
461.16,116.00
462.90,178.00
464.64,110.00
466.38,126.00
468.12,154.00
469.85,102.00
471.59,219.00
473.33,88.00
475.06,206.00
476.80,269.00
478.53,177.00
480.26,154.00
481.99,146.00
483.72,196.00
485.45,138.00
487.18,108.00
488.91,94.00
490.63,107.00
492.36,108.00
494.08,76.00
495.80,39.00
497.53,183.00
499.25,-28.00
500.97,176.00
502.69,56.00
504.41,104.00
506.12,14.00
507.84,95.00
509.56,10.00
511.27,104.00
512.98,86.00
514.70,19.00
516.41,7.00
518.12,15.00
519.83,86.00
521.54,20.00
523.25,48.00
524.95,112.00
526.66,99.00
528.36,-36.00
530.07,22.00
531.77,3.00
533.47,-25.00
535.18,86.00
536.88,3.00
538.58,42.00
540.27,-22.00
541.97,-13.00
543.67,12.00
545.36,-23.00
547.06,-66.00
548.75,-28.00
550.45,-1.00
552.14,-22.00
553.83,-52.00
555.52,51.00
557.21,87.00
558.90,-48.00
560.58,57.00
562.27,-78.00
563.96,-181.00
565.64,-20.00
567.32,52.00
569.01,76.00
570.69,91.00
572.37,26.00
574.05,-82.00
575.73,21.00
577.41,0.00
579.08,-28.00
580.76,34.00
582.44,-90.00
584.11,67.00
585.78,10.00
587.46,-18.00
589.13,30.00
590.80,1.00
592.47,28.00
594.14,5.00
595.81,21.00
597.47,-130.00
599.14,-113.00
600.80,77.00
602.47,-33.00
604.13,2.00
605.79,28.00
607.46,-1.00
609.12,-13.00
610.78,-10.00
612.44,-56.00
614.09,-55.00
615.75,61.00
617.41,72.00
619.06,90.00
620.72,-13.00
622.37,84.00
624.02,26.00
625.67,-19.00
627.33,16.00
628.97,-48.00
630.62,-54.00
632.27,-34.00
633.92,-89.00
635.57,57.00
637.21,32.00
638.86,65.00
640.50,-62.00
642.14,-29.00
643.78,15.00
645.42,41.00
647.06,-102.00
648.70,-12.00
650.34,-75.00
651.98,7.00
653.62,-93.00
655.25,-9.00
656.89,-16.00
658.52,76.00
660.15,-42.00
661.79,73.00
663.42,-7.00
665.05,52.00
666.68,-1.00
668.31,-87.00
669.93,45.00
671.56,-26.00
673.19,-41.00
674.81,42.00
676.43,-93.00
678.06,74.00
679.68,-17.00
681.30,80.00
682.92,-92.00
684.54,-73.00
686.16,-59.00
687.78,-9.00
689.40,34.00
691.01,-32.00
692.63,51.00
694.24,-87.00
695.86,-21.00
697.47,31.00
699.08,-72.00
700.69,-4.00
702.30,17.00
703.91,-66.00
705.52,-5.00
707.13,26.00
708.74,20.00
710.34,37.00
711.95,-44.00
713.55,15.00
715.15,-82.00
716.76,0.00
718.36,-42.00
719.96,83.00
721.56,66.00
723.16,86.00
724.76,128.00
726.35,-2.00
727.95,34.00
729.55,-17.00
731.14,28.00
732.73,-10.00
734.33,99.00
735.92,106.00
737.51,20.00
739.10,25.00
740.69,79.00
742.28,39.00
743.87,204.00
745.46,179.00
747.04,72.00
748.63,34.00
750.21,181.00
751.80,165.00
753.38,147.00
754.96,154.00
756.54,197.00
758.12,280.00
759.70,287.00
761.28,338.00
762.86,386.00
764.44,333.00
766.01,342.00
767.59,533.00
769.16,579.00
770.74,572.00
772.31,801.00
773.88,849.00
775.45,1160.00
777.02,1259.00
778.59,1561.00
780.16,1667.00
781.73,2157.00
783.30,2491.00
784.86,3332.00
786.43,4036.00
787.99,5271.00
789.56,6937.00
791.12,9447.00
792.68,11903.00
794.24,15369.00
795.80,17556.00
797.36,20146.00
798.92,21042.00
800.48,22886.00
802.04,22224.00
803.59,22422.00
805.15,20342.00
806.70,19410.00
808.26,17208.00
809.81,15289.00
811.36,13179.00
812.91,11407.00
814.46,8422.00
816.01,6278.00
817.56,4057.00
819.11,2929.00
820.66,2220.00
822.20,1780.00
823.75,1259.00
825.30,1175.00
826.84,766.00
828.38,718.00
829.93,631.00
831.47,371.00
833.01,607.00
834.55,521.00
836.09,443.00
837.63,308.00
839.16,320.00
840.70,388.00
842.24,173.00
843.77,213.00
845.31,257.00
846.84,311.00
848.37,276.00
849.90,362.00
851.44,259.00
852.97,277.00
854.50,273.00
856.03,254.00
857.55,156.00
859.08,217.00
860.61,118.00
862.13,167.00
863.66,261.00
865.18,251.00
866.70,188.00
868.23,174.00
869.75,238.00
871.27,103.00
872.79,116.00
874.31,176.00
875.83,146.00
877.35,166.00
878.86,148.00
880.38,28.00
881.89,151.00
883.41,78.00
884.92,84.00
886.44,77.00
887.95,99.00
889.46,147.00
890.97,103.00
892.48,134.00
893.99,162.00
895.50,82.00
897.01,84.00
898.51,83.00
900.02,-14.00
901.52,181.00
903.03,109.00
904.53,155.00
906.04,131.00
907.54,92.00
909.04,198.00
910.54,126.00
912.04,149.00
913.54,158.00
915.04,330.00
916.53,97.00
918.03,154.00
919.53,110.00
921.02,112.00
922.52,105.00
924.01,124.00
925.50,84.00
927.00,137.00
928.49,82.00
929.98,93.00
931.47,-60.00
932.96,32.00
934.44,45.00
935.93,13.00
937.42,-71.00
938.90,46.00
940.39,19.00
941.87,-7.00
943.36,51.00
944.84,227.00
946.32,143.00
947.80,56.00
949.29,64.00
950.77,-8.00
952.24,15.00
953.72,164.00
955.20,52.00
956.68,110.00
958.15,106.00
959.63,65.00
961.10,98.00
962.58,223.00
964.05,158.00
965.52,131.00
967.00,161.00
968.47,118.00
969.94,29.00
971.41,237.00
972.87,199.00
974.34,176.00
975.81,194.00
977.28,98.00
978.74,100.00
980.21,228.00
981.67,357.00
983.13,253.00
984.60,285.00
986.06,290.00
987.52,376.00
988.98,383.00
990.44,413.00
991.90,515.00
993.36,519.00
994.82,661.00
996.27,757.00
997.73,777.00
999.18,803.00
1000.64,948.00
1002.09,1241.00
1003.55,1314.00
1005.00,1536.00
1006.45,1693.00
1007.90,1894.00
1009.35,2128.00
1010.80,2435.00
1012.25,2769.00
1013.70,3183.00
1015.14,3574.00
1016.59,4292.00
1018.04,4717.00
1019.48,5518.00
1020.93,6074.00
1022.37,6928.00
1023.81,7509.00
1025.25,7986.00
1026.70,7970.00
1028.14,8489.00
1029.58,8448.00
1031.02,8303.00
1032.45,7864.00
1033.89,7588.00
1035.33,6892.00
1036.77,6648.00
1038.20,6004.00
1039.64,5342.00
1041.07,4607.00
1042.50,4096.00
1043.94,3464.00
1045.37,3038.00
1046.80,2503.00
1048.23,2358.00
1049.66,2033.00
1051.09,1763.00
1052.52,1639.00
1053.95,1365.00
1055.37,1244.00
1056.80,1029.00
1058.23,938.00
1059.65,972.00
1061.08,822.00
1062.50,783.00
1063.92,718.00
1065.34,740.00
1066.76,728.00
1068.19,610.00
1069.61,556.00
1071.02,481.00
1072.44,499.00
1073.86,445.00
1075.28,373.00
1076.69,352.00
1078.11,348.00
1079.53,292.00
1080.94,416.00
1082.35,303.00
1083.77,357.00
1085.18,337.00
1086.59,333.00
1088.00,201.00
1089.41,381.00
1090.82,223.00
1092.23,262.00
1093.64,282.00
1095.04,128.00
1096.45,253.00
1097.86,321.00
1099.26,282.00
1100.67,380.00
1102.07,321.00
1103.47,213.00
1104.88,217.00
1106.28,331.00
1107.68,232.00
1109.08,277.00
1110.48,317.00
1111.88,353.00
1113.28,239.00
1114.67,198.00
1116.07,202.00
1117.47,293.00
1118.86,286.00
1120.26,402.00
1121.65,283.00
1123.05,222.00
1124.44,156.00
1125.83,174.00
1127.22,270.00
1128.61,366.00
1130.00,394.00
1131.39,208.00
1132.78,269.00
1134.17,266.00
1135.56,465.00
1136.94,604.00
1138.33,486.00
1139.72,423.00
1141.10,550.00
1142.48,667.00
1143.87,746.00
1145.25,808.00
1146.63,752.00
1148.01,938.00
1149.39,1192.00
1150.77,1288.00
1152.15,1500.00
1153.53,1702.00
1154.91,1836.00
1156.29,1947.00
1157.66,2020.00
1159.04,2219.00
1160.41,2377.00
1161.79,2151.00
1163.16,2093.00
1164.54,1943.00
1165.91,1785.00
1167.28,1585.00
1168.65,1369.00
1170.02,995.00
1171.39,783.00
1172.76,490.00
1174.13,531.00
1175.50,427.00
1176.86,378.00
1178.23,454.00
1179.60,357.00
1180.96,359.00
1182.33,216.00
1183.69,173.00
1185.05,313.00
1186.42,231.00
1187.78,346.00
1189.14,260.00
1190.50,143.00
1191.86,188.00
1193.22,177.00
1194.58,234.00
1195.94,310.00
1197.29,230.00
1198.65,161.00
1200.01,283.00
1201.36,199.00
1202.72,243.00
1204.07,293.00
1205.42,242.00
1206.78,448.00
1208.13,385.00
1209.48,211.00
1210.83,334.00
1212.18,345.00
1213.53,269.00
1214.88,384.00
1216.23,272.00
1217.58,475.00
1218.92,503.00
1220.27,624.00
1221.61,398.00
1222.96,392.00
1224.30,365.00
1225.65,633.00
1226.99,649.00
1228.33,568.00
1229.67,719.00
1231.01,631.00
1232.36,719.00
1233.70,780.00
1235.03,940.00
1236.37,910.00
1237.71,958.00
1239.05,1241.00
1240.38,1117.00
1241.72,1376.00
1243.06,1473.00
1244.39,1582.00
1245.72,1657.00
1247.06,1739.00
1248.39,2055.00
1249.72,2444.00
1251.05,2724.00
1252.39,2987.00
1253.72,3321.00
1255.05,3836.00
1256.37,4107.00
1257.70,4629.00
1259.03,5186.00
1260.36,6000.00
1261.68,6087.00
1263.01,6576.00
1264.33,7016.00
1265.66,7466.00
1266.98,7603.00
1268.31,8060.00
1269.63,7561.00
1270.95,7918.00
1272.27,7607.00
1273.59,7243.00
1274.91,6702.00
1276.23,6564.00
1277.55,5827.00
1278.87,5153.00
1280.19,4595.00
1281.51,3896.00
1282.82,3467.00
1284.14,2946.00
1285.45,2606.00
1286.77,2671.00
1288.08,2066.00
1289.39,2058.00
1290.71,1745.00
1292.02,1594.00
1293.33,1500.00
1294.64,1317.00
1295.95,1137.00
1297.26,1194.00
1298.57,1228.00
1299.88,1008.00
1301.19,930.00
1302.49,1284.00
1303.80,822.00
1305.11,823.00
1306.41,679.00
1307.72,670.00
1309.02,858.00
1310.32,757.00
1311.63,857.00
1312.93,743.00
1314.23,788.00
1315.53,634.00
1316.83,665.00
1318.13,716.00
1319.43,720.00
1320.73,609.00
1322.03,805.00
1323.32,895.00
1324.62,777.00
1325.92,882.00
1327.21,700.00
1328.51,809.00
1329.80,864.00
1331.10,834.00
1332.39,993.00
1333.68,1034.00
1334.97,1104.00
1336.27,984.00
1337.56,1092.00
1338.85,1196.00
1340.14,1229.00
1341.42,1380.00
1342.71,1363.00
1344.00,1535.00
1345.29,1494.00
1346.57,1580.00
1347.86,1555.00
1349.15,1646.00
1350.43,1365.00
1351.71,1424.00
1353.00,1486.00
1354.28,1352.00
1355.56,1351.00
1356.85,1459.00
1358.13,1192.00
1359.41,1138.00
1360.69,1163.00
1361.97,1009.00
1363.25,1057.00
1364.52,1030.00
1365.80,806.00
1367.08,979.00
1368.35,932.00
1369.63,662.00
1370.91,690.00
1372.18,739.00
1373.45,776.00
1374.73,795.00
1376.00,655.00
1377.27,371.00
1378.54,568.00
1379.82,574.00
1381.09,565.00
1382.36,723.00
1383.63,645.00
1384.89,790.00
1386.16,711.00
1387.43,644.00
1388.70,628.00
1389.96,555.00
1391.23,604.00
1392.50,681.00
1393.76,680.00
1395.02,671.00
1396.29,656.00
1397.55,640.00
1398.81,767.00
1400.08,872.00
1401.34,703.00
1402.60,960.00
1403.86,949.00
1405.12,808.00
1406.38,865.00
1407.63,946.00
1408.89,986.00
1410.15,1176.00
1411.41,971.00
1412.66,1104.00
1413.92,1211.00
1415.17,1339.00
1416.43,1487.00
1417.68,1618.00
1418.93,1717.00
1420.19,2095.00
1421.44,2049.00
1422.69,2048.00
1423.94,2400.00
1425.19,2661.00
1426.44,2842.00
1427.69,3015.00
1428.94,3402.00
1430.19,3531.00
1431.43,3762.00
1432.68,4135.00
1433.93,4742.00
1435.17,4820.00
1436.42,5433.00
1437.66,5589.00
1438.91,6027.00
1440.15,6599.00
1441.39,6787.00
1442.64,7066.00
1443.88,7400.00
1445.12,7415.00
1446.36,7690.00
1447.60,7674.00
1448.84,7866.00
1450.08,7427.00
1451.32,7576.00
1452.56,7073.00
1453.79,6598.00
1455.03,6226.00
1456.27,5732.00
1457.50,5371.00
1458.74,4641.00
1459.97,4423.00
1461.21,4011.00
1462.44,3728.00
1463.67,3439.00
1464.91,3072.00
1466.14,2987.00
1467.37,2736.00
1468.60,2586.00
1469.83,2298.00
1471.06,2285.00
1472.29,2164.00
1473.52,2156.00
1474.75,1958.00
1475.97,1772.00
1477.20,1622.00
1478.43,1497.00
1479.65,1500.00
1480.88,1294.00
1482.10,1269.00
1483.33,1268.00
1484.55,1110.00
1485.77,1193.00
1487.00,1092.00
1488.22,833.00
1489.44,1003.00
1490.66,979.00
1491.88,815.00
1493.10,767.00
1494.32,668.00
1495.54,762.00
1496.76,777.00
1497.97,803.00
1499.19,758.00
1500.41,715.00
1501.62,382.00
1502.84,622.00
1504.05,519.00
1505.27,641.00
1506.48,473.00
1507.70,573.00
1508.91,516.00
1510.12,443.00
1511.33,389.00
1512.54,675.00
1513.75,524.00
1514.96,440.00
1516.17,468.00
1517.38,387.00
1518.59,306.00
1519.80,553.00
1521.01,432.00
1522.21,354.00
1523.42,349.00
1524.63,103.00
1525.83,406.00
1527.04,421.00
1528.24,307.00
1529.44,423.00
1530.65,287.00
1531.85,487.00
1533.05,277.00
1534.25,384.00
1535.45,203.00
1536.65,439.00
1537.85,273.00
1539.05,347.00
1540.25,384.00
1541.45,381.00
1542.65,176.00
1543.85,400.00
1545.04,194.00
1546.24,190.00
1547.44,322.00
1548.63,203.00
1549.83,278.00
1551.02,227.00
1552.21,340.00
1553.41,302.00
1554.60,115.00
1555.79,283.00
1556.98,139.00
1558.17,91.00
1559.37,160.00
1560.56,220.00
1561.74,196.00
1562.93,256.00
1564.12,243.00
1565.31,317.00
1566.50,375.00
1567.68,163.00
1568.87,332.00
1570.06,329.00
1571.24,164.00
1572.43,326.00
1573.61,221.00
1574.80,132.00
1575.98,120.00
1577.16,429.00
1578.34,197.00
1579.53,294.00
1580.71,295.00
1581.89,142.00
1583.07,256.00
1584.25,192.00
1585.43,114.00
1586.61,120.00
1587.78,177.00
1588.96,200.00
1590.14,163.00
1591.32,83.00
1592.49,300.00
1593.67,139.00
1594.84,131.00
1596.02,162.00
1597.19,174.00
1598.37,325.00
1599.54,76.00
1600.71,25.00
1601.88,199.00
1603.06,84.00
1604.23,278.00
1605.40,85.00
1606.57,53.00
1607.74,163.00
1608.91,190.00
1610.07,229.00
1611.24,206.00
1612.41,13.00
1613.58,139.00
1614.74,106.00
1615.91,100.00
1617.08,88.00
1618.24,72.00
1619.41,85.00
1620.57,138.00
1621.73,335.00
1622.90,116.00
1624.06,59.00
1625.22,167.00
1626.38,25.00
1627.54,335.00
1628.70,92.00
1629.87,75.00
1631.02,258.00
1632.18,272.00
1633.34,234.00
1634.50,204.00
1635.66,272.00
1636.82,81.00
1637.97,105.00
1639.13,87.00
1640.28,173.00
1641.44,59.00
1642.59,11.00
1643.75,214.00
1644.90,119.00
1646.06,256.00
1647.21,199.00
1648.36,220.00
1649.51,123.00
1650.66,90.00
1651.81,172.00
1652.97,142.00
1654.11,-19.00
1655.26,158.00
1656.41,118.00
1657.56,208.00
1658.71,131.00
1659.86,121.00
1661.00,-61.00
1662.15,187.00
1663.30,-45.00
1664.44,177.00
1665.59,58.00
1666.73,-52.00
1667.88,147.00
1669.02,194.00
1670.16,28.00
1671.30,89.00
1672.45,113.00
1673.59,51.00
1674.73,43.00
1675.87,27.00
1677.01,47.00
1678.15,137.00
1679.29,293.00
1680.43,134.00
1681.57,210.00
1682.70,131.00
1683.84,36.00
1684.98,96.00
1686.12,238.00
1687.25,195.00
1688.39,155.00
1689.52,125.00
1690.66,3.00
1691.79,20.00
1692.92,199.00
1694.06,154.00
1695.19,200.00
1696.32,78.00
1697.45,121.00
1698.58,57.00
1699.72,139.00
1700.85,-30.00
1701.98,84.00
1703.10,70.00
1704.23,134.00
1705.36,-79.00
1706.49,134.00
1707.62,158.00
1708.74,55.00
1709.87,70.00
1711.00,79.00
1712.12,-59.00
1713.25,125.00
1714.37,-35.00
1715.50,89.00
1716.62,112.00
1717.74,138.00
1718.87,123.00
1719.99,107.00
1721.11,-6.00
1722.23,41.00
1723.35,26.00
1724.47,139.00
1725.59,116.00
1726.71,121.00
1727.83,148.00
1728.95,97.00
1730.07,58.00
1731.19,73.00
1732.30,32.00
1733.42,42.00
1734.54,-18.00
1735.65,168.00
1736.77,-72.00
1737.88,1.00
1739.00,95.00
1740.11,133.00
1741.23,79.00
1742.34,2.00
1743.45,-3.00
1744.56,127.00
1745.68,74.00
1746.79,68.00
1747.90,-44.00
1749.01,-61.00
1750.12,31.00
1751.23,41.00
1752.34,-25.00
1753.45,108.00
1754.55,57.00
1755.66,-131.00
1756.77,-30.00
1757.88,30.00
1758.98,176.00
1760.09,22.00
1761.19,48.00
1762.30,146.00
1763.40,86.00
1764.51,63.00
1765.61,14.00
1766.71,34.00
1767.82,13.00
1768.92,39.00
1770.02,-5.00
1771.12,23.00
1772.22,-115.00
1773.32,62.00
1774.42,172.00
1775.52,245.00
1776.62,162.00
1777.72,-46.00
1778.82,130.00
1779.92,111.00
1781.01,15.00
1782.11,99.00
1783.21,140.00
1784.30,92.00
1785.40,50.00
1786.50,-118.00
1787.59,118.00
1788.68,82.00
1789.78,-22.00
1790.87,146.00
1791.96,92.00
1793.06,-79.00
1794.15,151.00
1795.24,-135.00
1796.33,-1.00
1797.42,148.00
1798.51,-130.00
1799.60,185.00
1800.69,43.00
1801.78,44.00
1802.87,33.00
1803.96,46.00
1805.05,-41.00
1806.13,-87.00
1807.22,159.00
1808.31,44.00
1809.39,65.00
1810.48,42.00
1811.56,70.00
1812.65,92.00
1813.73,54.00
1814.82,19.00
1815.90,-14.00
1816.98,-17.00
1818.07,-31.00
1819.15,64.00
1820.23,-12.00
1821.31,85.00
1822.39,13.00
1823.47,-68.00
1824.55,23.00
1825.63,135.00
1826.71,54.00
1827.79,-38.00
1828.87,-15.00
1829.95,14.00
1831.02,86.00
1832.10,26.00
1833.18,-98.00
1834.25,79.00
1835.33,-10.00
1836.40,-8.00
1837.48,-119.00
1838.55,75.00
1839.63,-3.00
1840.70,65.00
1841.77,14.00
1842.85,-60.00
1843.92,-146.00
1844.99,-41.00
1846.06,18.00
1847.13,-30.00
1848.20,-70.00
1849.28,-48.00
1850.34,105.00
1851.41,33.00
1852.48,-29.00
1853.55,27.00
1854.62,-14.00
1855.69,73.00
1856.76,-107.00
1857.82,-71.00
1858.89,53.00
1859.95,-24.00
1861.02,17.00
1862.09,-67.00
1863.15,-168.00
1864.21,-9.00
1865.28,27.00
1866.34,3.00
1867.41,-176.00
1868.47,-40.00
1869.53,-1.00
1870.59,-11.00
1871.65,32.00
1872.71,-64.00
1873.78,30.00
1874.84,-85.00
1875.90,-88.00
1876.96,49.00
1878.01,-151.00
1879.07,98.00
1880.13,48.00
1881.19,-14.00
1882.25,-16.00
1883.30,-36.00
1884.36,33.00
1885.42,-75.00
1886.47,-11.00
1887.53,5.00
1888.58,-50.00
1889.64,24.00
1890.69,-54.00
1891.74,63.00
1892.80,-109.00
1893.85,-40.00
1894.90,1.00
1895.96,-9.00
1897.01,-47.00
1898.06,-20.00
1899.11,-33.00
1900.16,-60.00
1901.21,-70.00
1902.26,-19.00
1903.31,89.00
1904.36,-16.00
1905.41,-66.00
1906.45,40.00
1907.50,-49.00
1908.55,-60.00
1909.60,12.00
1910.64,151.00
1911.69,-7.00
1912.73,-22.00
1913.78,8.00
1914.82,-3.00
1915.87,-2.00
1916.91,68.00
1917.96,12.00
1919.00,-23.00
1920.04,-143.00
1921.08,24.00
1922.13,-73.00
1923.17,52.00
1924.21,-130.00
1925.25,-75.00
1926.29,-110.00
1927.33,-9.00
1928.37,-12.00
1929.41,48.00
1930.45,-51.00
1931.49,-56.00
1932.53,-47.00
1933.56,-84.00
1934.60,-36.00
1935.64,-87.00
1936.67,1.00
1937.71,-5.00
1938.75,-7.00
1939.78,-3.00
1940.82,-60.00
1941.85,5.00
1942.89,-90.00
1943.92,-48.00
1944.95,-9.00
1945.99,62.00
1947.02,-43.00
1948.05,-95.00
1949.08,-45.00
1950.11,5.00
1951.15,-152.00
1952.18,-1.00
1953.21,-38.00
1954.24,-51.00
1955.27,76.00
1956.30,100.00
1957.32,-51.00
1958.35,5.00
1959.38,-2.00
1960.41,-8.00
1961.44,-30.00
1962.46,17.00
1963.49,-119.00
1964.51,20.00
1965.54,38.00
1966.57,-16.00
1967.59,16.00
1968.62,40.00
1969.64,-3.00
1970.66,-29.00
1971.69,4.00
1972.71,48.00
1973.73,-1.00
1974.75,34.00
1975.78,-2.00
1976.80,-105.00
1977.82,-38.00
1978.84,33.00
1979.86,-39.00
1980.88,0.00
1981.90,14.00
1982.92,-39.00
1983.94,89.00
1984.96,38.00
1985.98,-11.00
1986.99,-1.00
1988.01,-73.00
1989.03,-56.00
1990.04,-16.00
1991.06,-4.00
1992.08,-26.00
1993.09,-27.00
1994.11,21.00
1995.12,55.00
1996.14,-68.00
1997.15,28.00
1998.16,-37.00
1999.18,77.00
2000.19,36.00
2001.20,-99.00
2002.21,42.00
2003.23,3.00
2004.24,21.00
2005.25,26.00
2006.26,-98.00
2007.27,-47.00
2008.28,-48.00
2009.29,-19.00
2010.30,-112.00
2011.31,22.00
2012.32,-89.00
2013.32,12.00
2014.33,-61.00
2015.34,-7.00
2016.35,50.00
2017.35,-36.00
2018.36,-18.00
2019.36,-97.00
2020.37,-48.00
2021.38,-46.00
2022.38,-7.00
2023.38,-5.00
2024.39,-16.00
2025.39,18.00
2026.40,-9.00
2027.40,-22.00
2028.40,-54.00
2029.40,31.00
2030.41,-20.00
2031.41,20.00
2032.41,-40.00
2033.41,44.00
2034.41,3.00
2035.41,-64.00
2036.41,59.00
2037.41,8.00
2038.41,35.00
2039.41,-122.00
2040.40,-23.00
2041.40,74.00
2042.40,-39.00
2043.40,61.00
2044.39,-81.00
2045.39,93.00
2046.39,-42.00
2047.38,-27.00
2048.38,-118.00
2049.37,-9.00
2050.37,19.00
2051.36,-11.00
2052.36,-14.00
2053.35,123.00
2054.34,70.00
2055.34,33.00
2056.33,19.00
2057.32,-23.00
2058.31,9.00
2059.30,7.00
2060.30,7.00
2061.29,-44.00
2062.28,37.00
2063.27,23.00
2064.26,-80.00
2065.25,-16.00
2066.23,54.00
2067.22,43.00
2068.21,-63.00
2069.20,-80.00
2070.19,-116.00
2071.17,23.00
2072.16,-64.00
2073.15,-53.00
2074.13,-32.00
2075.12,15.00
2076.11,-23.00
2077.09,28.00
2078.08,63.00
2079.06,-20.00
2080.04,-22.00
2081.03,61.00
2082.01,30.00
2083.00,17.00
2083.98,-21.00
2084.96,27.00
2085.94,-24.00
2086.92,38.00
2087.91,-59.00
2088.89,-19.00
2089.87,2.00
2090.85,-19.00
2091.83,-65.00
2092.81,-37.00
2093.79,-12.00
2094.77,75.00
2095.74,-36.00
2096.72,-56.00
2097.70,-55.00
2098.68,-94.00
2099.66,-94.00
2100.63,-3.00
2101.61,-85.00
2102.59,-48.00
2103.56,47.00
2104.54,-1.00
2105.51,6.00
2106.49,67.00
2107.46,57.00
2108.44,-19.00
2109.41,11.00
2110.38,68.00
2111.36,-37.00
2112.33,-5.00
2113.30,30.00
2114.27,2.00
2115.25,14.00
2116.22,44.00
2117.19,-12.00
2118.16,-43.00
2119.13,-51.00
2120.10,11.00
2121.07,63.00
2122.04,27.00
2123.01,-8.00
2123.98,30.00
2124.95,-7.00
2125.91,10.00
2126.88,20.00
2127.85,36.00
2128.82,12.00
2129.78,1.00
2130.75,-63.00
2131.72,29.00
2132.68,-100.00
2133.65,12.00
2134.61,120.00
2135.58,69.00
2136.54,-1.00
2137.51,10.00
2138.47,-65.00
2139.43,-51.00
2140.40,-25.00
2141.36,2.00
2142.32,38.00
2143.29,24.00
2144.25,29.00
2145.21,95.00
2146.17,-32.00
2147.13,-90.00
2148.09,-35.00
2149.05,-44.00
2150.01,9.00
2150.97,-58.00
2151.93,1.00
2152.89,48.00
2153.85,35.00
2154.81,11.00
2155.76,-52.00
2156.72,-51.00
2157.68,51.00
2158.64,67.00
2159.59,7.00
2160.55,-7.00
2161.51,-72.00
2162.46,-34.00
2163.42,-2.00
2164.37,0.00
2165.33,35.00
2166.28,102.00
2167.24,-40.00
2168.19,12.00
2169.14,-84.00
2170.10,4.00
2171.05,-23.00
2172.00,41.00
2172.95,96.00
2173.91,24.00
2174.86,5.00
2175.81,78.00
2176.76,-7.00
2177.71,-3.00
2178.66,-75.00
2179.61,1.00
2180.56,44.00
2181.51,67.00
2182.46,12.00
2183.41,-55.00
2184.36,-9.00
2185.30,3.00
2186.25,18.00
2187.20,-23.00
2188.15,48.00
2189.09,52.00
2190.04,-30.00
2190.99,-72.00
2191.93,-71.00
2192.88,22.00
2193.82,-19.00
2194.77,-21.00
2195.71,-20.00
2196.66,-16.00
2197.60,-31.00
2198.54,-30.00
2199.49,35.00
2200.43,53.00
2201.37,-46.00
2202.32,37.00
2203.26,-22.00
2204.20,15.00
2205.14,-15.00
2206.08,131.00
2207.02,17.00
2207.96,9.00
2208.90,65.00
2209.84,32.00
2210.78,64.00
2211.72,18.00
2212.66,9.00
2213.60,27.00
2214.54,-54.00
2215.48,69.00
2216.42,24.00
2217.35,16.00
2218.29,-56.00
2219.23,33.00
2220.16,87.00
2221.10,6.00
2222.04,-14.00
2222.97,25.00
2223.91,26.00
2224.84,-7.00
2225.78,91.00
2226.71,87.00
2227.65,40.00
2228.58,127.00
2229.51,-15.00
2230.45,42.00
2231.38,41.00
2232.31,21.00
2233.24,76.00
2234.18,47.00
2235.11,2.00
2236.04,10.00
2236.97,19.00
2237.90,40.00
2238.83,57.00
2239.76,-22.00
2240.69,38.00
2241.62,-83.00
2242.55,-47.00
2243.48,43.00
2244.41,25.00
2245.34,85.00
2246.27,33.00
2247.19,32.00
2248.12,-49.00
2249.05,40.00
2249.98,56.00
2250.90,47.00
2251.83,5.00
2252.75,-1.00
2253.68,107.00
2254.61,50.00
2255.53,-10.00
2256.46,-10.00
2257.38,1.00
2258.31,10.00
2259.23,6.00
2260.15,73.00
2261.08,0.00
2262.00,0.00
2262.92,-37.00
2263.85,80.00
2264.77,13.00
2265.69,188.00
2266.61,-35.00
2267.53,17.00
2268.45,20.00
2269.37,50.00
2270.30,-10.00
2271.22,-6.00
2272.14,57.00
2273.05,49.00
2273.97,94.00
2274.89,29.00
2275.81,-82.00
2276.73,-22.00
2277.65,43.00
2278.57,-31.00
2279.48,6.00
2280.40,-31.00
2281.32,-99.00
2282.24,35.00
2283.15,-12.00
2284.07,45.00
2284.98,21.00
2285.90,75.00
2286.82,-58.00
2287.73,37.00
2288.65,32.00
2289.56,21.00
2290.47,30.00
2291.39,79.00
2292.30,25.00
2293.21,-22.00
2294.13,-54.00
2295.04,-108.00
2295.95,23.00
2296.87,-48.00
2297.78,-5.00
2298.69,-17.00
2299.60,18.00
2300.51,-23.00
2301.42,-23.00
2302.33,2.00
2303.24,-17.00
2304.15,5.00
2305.06,26.00
2305.97,37.00
2306.88,-54.00
2307.79,16.00
2308.70,-69.00
2309.61,-50.00
2310.51,-3.00
2311.42,4.00
2312.33,34.00
2313.24,-15.00
2314.14,56.00
2315.05,-29.00
2315.96,-32.00
2316.86,23.00
2317.77,40.00
2318.67,-29.00
2319.58,27.00
2320.48,5.00
2321.39,-51.00
2322.29,-30.00
2323.20,22.00
2324.10,40.00
2325.00,-28.00
2325.91,13.00
2326.81,45.00
2327.71,22.00
2328.62,73.00
2329.52,38.00
2330.42,27.00
2331.32,21.00
2332.22,0.00
2333.12,23.00
2334.03,12.00
2334.93,103.00
2335.83,25.00
2336.73,46.00
2337.63,-28.00
2338.53,36.00
2339.42,-11.00
2340.32,62.00
2341.22,-4.00
2342.12,50.00
2343.02,49.00
2343.92,56.00
2344.81,14.00
2345.71,19.00
2346.61,3.00
2347.51,25.00
2348.40,8.00
2349.30,65.00
2350.19,-3.00
2351.09,-59.00
2351.98,11.00
2352.88,-20.00
2353.77,55.00
2354.67,24.00
2355.56,68.00
2356.46,82.00
2357.35,20.00
2358.25,84.00
2359.14,-62.00
2360.03,90.00
2360.92,8.00
2361.82,-4.00
2362.71,2.00
2363.60,31.00
2364.49,74.00
2365.38,36.00
2366.28,86.00
2367.17,24.00
2368.06,15.00
2368.95,12.00
2369.84,53.00
2370.73,15.00
2371.62,-26.00
2372.51,-28.00
2373.40,-8.00
2374.28,-15.00
2375.17,-55.00
2376.06,116.00
2376.95,-7.00
2377.84,26.00
2378.72,69.00
2379.61,-33.00
2380.50,-57.00
2381.39,-8.00
2382.27,43.00
2383.16,22.00
2384.04,34.00
2384.93,48.00
2385.81,57.00
2386.70,-5.00
2387.59,5.00
2388.47,-19.00
2389.35,46.00
2390.24,20.00
2391.12,5.00
2392.01,-21.00
2392.89,-57.00
2393.77,28.00
2394.66,-70.00
2395.54,28.00
2396.42,45.00
2397.30,-8.00
2398.18,-46.00
2399.07,14.00
2399.95,5.00
2400.83,16.00
2401.71,5.00
2402.59,-16.00
2403.47,22.00
2404.35,17.00
2405.23,27.00
2406.11,-33.00
2406.99,-14.00
2407.87,4.00
2408.75,43.00
2409.62,-37.00
2410.50,27.00
2411.38,-16.00
2412.26,0.00
2413.14,24.00
2414.01,-15.00
2414.89,-17.00
2415.77,-6.00
2416.64,15.00
2417.52,-147.00
2418.40,-12.00
2419.27,-7.00
2420.15,2.00
2421.02,-43.00
2421.90,78.00
2422.77,42.00
2423.65,-4.00
2424.52,3.00
2425.40,63.00
2426.27,11.00
2427.14,19.00
2428.02,25.00
2428.89,42.00
2429.76,39.00
2430.64,-7.00
2431.51,-9.00
2432.38,-57.00
2433.25,-40.00
2434.12,-4.00
2434.99,-78.00
2435.87,83.00
2436.74,2.00
2437.61,70.00
2438.48,7.00
2439.35,48.00
2440.22,16.00
2441.09,57.00
2441.96,-14.00
2442.83,40.00
2443.69,51.00
2444.56,10.00
2445.43,40.00
2446.30,66.00
2447.17,7.00
2448.04,22.00
2448.90,-84.00
2449.77,35.00
2450.64,66.00
2451.50,27.00
2452.37,74.00
2453.24,16.00
2454.10,41.00
2454.97,27.00
2455.83,86.00
2456.70,59.00
2457.56,53.00
2458.43,45.00
2459.29,73.00
2460.16,70.00
2461.02,-2.00
2461.89,46.00
2462.75,48.00
2463.61,58.00
2464.48,9.00
2465.34,111.00
2466.20,-26.00
2467.06,68.00
2467.93,58.00
2468.79,-20.00
2469.65,157.00
2470.51,25.00
2471.37,11.00
2472.23,-54.00
2473.10,58.00
2473.96,-19.00
2474.82,-51.00
2475.68,-52.00
2476.54,-77.00
2477.40,-22.00
2478.26,-14.00
2479.11,27.00
2479.97,49.00
2480.83,18.00
2481.69,99.00
2482.55,17.00
2483.41,30.00
2484.26,72.00
2485.12,-7.00
2485.98,33.00
2486.84,-2.00
2487.69,-53.00
2488.55,19.00
2489.41,57.00
2490.26,38.00
2491.12,-38.00
2491.97,-22.00
2492.83,-14.00
2493.68,-59.00
2494.54,74.00
2495.39,-47.00
2496.25,-5.00
2497.10,-12.00
2497.96,6.00
2498.81,12.00
2499.67,-35.00
2500.52,-18.00
2501.37,12.00
2502.22,10.00
2503.08,14.00
2503.93,8.00
2504.78,44.00
2505.63,107.00
2506.49,-8.00
2507.34,24.00
2508.19,33.00
2509.04,16.00
2509.89,-8.00
2510.74,1.00
2511.59,25.00
2512.44,40.00
2513.29,42.00
2514.14,-9.00
2514.99,10.00
2515.84,-28.00
2516.69,40.00
2517.54,20.00
2518.39,107.00
2519.24,-42.00
2520.08,53.00
2520.93,-77.00
2521.78,-20.00
2522.63,16.00
2523.48,37.00
2524.32,100.00
2525.17,99.00
2526.02,14.00
2526.86,-18.00
2527.71,-57.00
2528.56,4.00
2529.40,-29.00
2530.25,63.00
2531.09,23.00
2531.94,63.00
2532.78,67.00
2533.63,-5.00
2534.47,-6.00
2535.32,85.00
2536.16,2.00
2537.00,15.00
2537.85,12.00
2538.69,74.00
2539.53,36.00
2540.38,76.00
2541.22,52.00
2542.06,78.00
2542.90,-8.00
2543.75,79.00
2544.59,33.00
2545.43,-36.00
2546.27,26.00
2547.11,75.00
2547.95,24.00
2548.79,9.00
2549.64,3.00
2550.48,13.00
2551.32,37.00
2552.16,45.00
2553.00,-16.00
2553.84,48.00
2554.67,-26.00
2555.51,57.00
2556.35,-5.00
2557.19,50.00
2558.03,48.00
2558.87,68.00
2559.71,11.00
2560.54,100.00
2561.38,-48.00
2562.22,-16.00
2563.06,-10.00
2563.89,61.00
2564.73,56.00
2565.57,28.00
2566.40,-8.00
2567.24,27.00
2568.07,23.00
2568.91,-1.00
2569.75,-81.00
2570.58,42.00
2571.42,2.00
2572.25,84.00
2573.09,25.00
2573.92,74.00
2574.75,58.00
2575.59,32.00
2576.42,95.00
2577.26,-11.00
2578.09,40.00
2578.92,14.00
2579.76,63.00
2580.59,57.00
2581.42,-51.00
2582.25,81.00
2583.09,90.00
2583.92,23.00
2584.75,97.00
2585.58,-19.00
2586.41,43.00
2587.24,117.00
2588.07,113.00
2588.91,67.00
2589.74,67.00
2590.57,35.00
2591.40,52.00
2592.23,141.00
2593.06,93.00
2593.89,87.00
2594.72,69.00
2595.54,-27.00
2596.37,32.00
2597.20,43.00
2598.03,159.00
2598.86,119.00
2599.69,57.00
2600.52,74.00
2601.34,44.00
2602.17,89.00
2603.00,50.00
2603.82,55.00
2604.65,117.00
2605.48,35.00
2606.30,145.00
2607.13,116.00
2607.96,25.00
2608.78,45.00
2609.61,28.00
2610.43,33.00
2611.26,109.00
2612.08,116.00
2612.91,66.00
2613.73,81.00
2614.56,70.00
2615.38,116.00
2616.21,118.00
2617.03,54.00
2617.86,89.00
2618.68,-18.00
2619.50,97.00
2620.33,148.00
2621.15,-9.00
2621.97,114.00
2622.79,123.00
2623.62,102.00
2624.44,77.00
2625.26,74.00
2626.08,42.00
2626.90,68.00
2627.72,106.00
2628.55,49.00
2629.37,113.00
2630.19,75.00
2631.01,113.00
2631.83,122.00
2632.65,144.00
2633.47,120.00
2634.29,122.00
2635.11,183.00
2635.93,108.00
2636.75,57.00
2637.57,113.00
2638.39,124.00
2639.20,74.00
2640.02,111.00
2640.84,114.00
2641.66,164.00
2642.48,107.00
2643.29,85.00
2644.11,115.00
2644.93,63.00
2645.75,132.00
2646.56,68.00
2647.38,62.00
2648.20,65.00
2649.01,0.00
2649.83,0.00
2650.65,0.00
2651.46,0.00
2652.28,0.00
